Freq(Hz)	Noise floor as SE unstirred(dB)	Noise floor as SE stirred(dB)
200000000.000000	61.103	44.718
250000000.000000	54.937	51.551
300000000.000000	62.306	52.592
350000000.000000	75.840	54.007
400000000.000000	55.966	56.798
450000000.000000	57.799	56.859
500000000.000000	74.985	58.558
550000000.000000	66.624	63.486
600000000.000000	74.100	63.410
650000000.000000	66.976	66.704
700000000.000000	57.591	64.509
750000000.000000	63.698	59.668
800000000.000000	65.524	61.657
850000000.000000	59.069	62.715
900000000.000000	78.778	66.844
950000000.000000	62.763	66.468
1000000000.000000	70.758	66.920
1050000000.000000	63.514	68.321
1100000000.000000	63.641	66.749
1150000000.000000	72.187	67.759
1200000000.000000	71.502	70.448
1250000000.000000	76.632	70.386
1300000000.000000	71.137	72.718
1350000000.000000	72.160	71.651
1400000000.000000	62.741	71.453
1450000000.000000	69.889	69.384
1500000000.000000	81.155	69.953
1550000000.000000	81.191	72.748
1600000000.000000	69.782	74.545
1650000000.000000	73.552	73.323
1700000000.000000	62.391	74.488
1750000000.000000	77.152	73.592
1800000000.000000	77.454	74.052
1850000000.000000	69.062	73.920
1900000000.000000	70.377	73.466
1950000000.000000	75.573	73.884
2000000000.000000	65.172	75.751
2050000000.000000	67.705	75.433
2100000000.000000	74.583	75.604
2150000000.000000	71.409	73.412
2200000000.000000	65.446	74.057
2250000000.000000	88.519	73.558
2300000000.000000	73.446	75.385
2350000000.000000	93.761	73.716
2400000000.000000	78.478	73.780
2450000000.000000	72.256	73.116
2500000000.000000	84.429	73.518
2550000000.000000	83.189	75.746
2600000000.000000	77.841	76.553
2650000000.000000	80.148	74.605
2700000000.000000	70.388	75.033
2750000000.000000	73.063	75.002
2800000000.000000	76.326	74.285
2850000000.000000	68.470	72.864
2900000000.000000	62.254	74.019
2950000000.000000	79.325	74.680
3000000000.000000	65.728	76.603
3050000000.000000	75.239	75.936
3100000000.000000	74.945	75.274
3150000000.000000	70.069	74.723
3200000000.000000	67.539	75.106
3250000000.000000	64.489	73.444
3300000000.000000	58.332	74.355
3350000000.000000	77.429	74.821
3400000000.000000	80.610	74.142
3450000000.000000	76.678	74.161
3500000000.000000	62.550	73.925
3550000000.000000	65.089	74.906
3600000000.000000	59.887	75.442
3650000000.000000	73.746	74.581
3700000000.000000	68.700	75.231
3750000000.000000	68.964	75.891
3800000000.000000	74.386	75.721
3850000000.000000	68.779	75.160
3900000000.000000	89.837	74.512
3950000000.000000	79.317	75.440
4000000000.000000	73.928	76.659
4050000000.000000	100.922	77.315
4100000000.000000	78.754	75.936
4150000000.000000	68.504	75.769
4200000000.000000	62.560	73.669
4250000000.000000	72.139	75.888
4300000000.000000	78.462	76.377
4350000000.000000	78.107	76.670
4400000000.000000	86.474	74.129
4450000000.000000	74.513	75.019
4500000000.000000	59.298	73.816
4550000000.000000	77.513	72.847
4600000000.000000	62.313	73.201
4650000000.000000	70.492	73.292
4700000000.000000	72.495	73.125
4750000000.000000	75.319	73.186
4800000000.000000	47.982	73.193
4850000000.000000	74.145	73.642
4900000000.000000	65.370	72.735
4950000000.000000	66.694	73.435
5000000000.000000	80.571	72.776
5050000000.000000	80.244	72.751
5100000000.000000	71.556	73.096
5150000000.000000	73.576	72.628
5200000000.000000	76.602	71.203
5250000000.000000	68.939	71.440
5300000000.000000	66.849	71.449
5350000000.000000	75.842	73.770
5400000000.000000	67.071	73.741
5450000000.000000	62.317	74.102
5500000000.000000	75.659	72.969
5550000000.000000	64.019	73.872
5600000000.000000	72.204	73.245
5650000000.000000	72.442	72.696
5700000000.000000	69.819	72.647
5750000000.000000	71.000	72.714
5800000000.000000	68.276	71.794
5850000000.000000	81.006	72.162
5900000000.000000	80.819	71.721
5950000000.000000	80.195	71.144
6000000000.000000	78.717	70.418
6050000000.000000	77.201	70.058
6100000000.000000	70.050	69.710
6150000000.000000	65.861	69.084
6200000000.000000	70.289	71.145
6250000000.000000	71.903	70.330
6300000000.000000	67.721	69.578
6350000000.000000	65.462	69.568
6400000000.000000	64.652	67.848
6450000000.000000	61.896	68.187
6500000000.000000	66.204	69.842
6550000000.000000	72.050	69.231
6600000000.000000	73.148	70.101
6650000000.000000	77.020	70.731
6700000000.000000	66.513	70.296
6750000000.000000	70.551	68.700
6800000000.000000	67.911	67.740
6850000000.000000	83.994	69.176
6900000000.000000	77.273	70.665
6950000000.000000	85.520	71.126
7000000000.000000	65.530	69.546
7050000000.000000	62.653	69.817
7100000000.000000	75.305	69.275
7150000000.000000	77.376	69.191
7200000000.000000	64.045	68.070
7250000000.000000	67.283	68.734
7300000000.000000	74.862	68.512
7350000000.000000	67.615	66.670
7400000000.000000	69.983	64.673
7450000000.000000	73.411	64.621
7500000000.000000	72.617	69.190
7550000000.000000	65.274	69.531
7600000000.000000	60.536	67.484
7650000000.000000	67.345	67.839
7700000000.000000	63.005	65.679
7750000000.000000	75.031	66.673
7800000000.000000	72.856	65.928
7850000000.000000	70.929	64.024
7900000000.000000	61.187	65.492
7950000000.000000	78.534	65.690
8000000000.000000	41.194	63.805
8050000000.000000	73.790	61.764
8100000000.000000	76.837	62.584
8150000000.000000	66.400	62.680
8200000000.000000	57.357	63.605
8250000000.000000	56.655	62.002
8300000000.000000	64.315	60.736
8350000000.000000	54.190	60.650
8400000000.000000	57.861	61.326
8450000000.000000	70.810	61.266
8500000000.000000	54.995	60.730
8550000000.000000	59.027	60.980
8600000000.000000	64.675	62.806
8650000000.000000	60.419	61.403
8700000000.000000	62.821	60.086
8750000000.000000	59.564	60.096
8800000000.000000	58.328	60.752
8850000000.000000	61.595	60.157
8900000000.000000	58.251	58.429
8950000000.000000	48.203	57.969
9000000000.000000	60.169	59.239
9050000000.000000	58.623	59.276
9100000000.000000	67.615	58.514
9150000000.000000	66.558	58.438
9200000000.000000	68.533	60.155
9250000000.000000	58.063	58.579
9300000000.000000	67.446	59.656
9350000000.000000	56.883	60.592
9400000000.000000	53.480	60.150
9450000000.000000	72.935	59.615
9500000000.000000	63.568	59.472
9550000000.000000	62.356	60.090
9600000000.000000	69.801	60.478
9650000000.000000	61.878	61.385
9700000000.000000	49.899	61.900
9750000000.000000	62.147	61.497
9800000000.000000	63.294	62.286
9850000000.000000	56.988	61.442
9900000000.000000	59.572	61.439
9950000000.000000	73.304	60.358
10000000000.000000	67.579	62.601
10050000000.000000	59.359	63.064
10100000000.000000	47.376	62.050
10150000000.000000	53.175	62.814
10200000000.000000	62.998	62.797
10250000000.000000	66.995	63.243
10300000000.000000	67.175	63.230
10350000000.000000	63.990	63.877
10400000000.000000	56.616	63.542
10450000000.000000	65.215	63.313
10500000000.000000	64.274	63.266
10550000000.000000	59.900	63.608
10600000000.000000	67.194	62.985
10650000000.000000	61.027	64.263
10700000000.000000	53.360	63.386
10750000000.000000	77.862	63.528
10800000000.000000	72.665	62.920
10850000000.000000	69.287	62.377
10900000000.000000	66.898	62.878
10950000000.000000	66.447	61.376
11000000000.000000	57.998	61.429
11050000000.000000	56.600	61.116
11100000000.000000	57.464	61.307
11150000000.000000	70.061	61.881
11200000000.000000	69.817	61.401
11250000000.000000	57.215	61.150
11300000000.000000	53.849	62.448
11350000000.000000	61.641	59.993
11400000000.000000	70.485	58.621
11450000000.000000	67.290	58.628
11500000000.000000	75.958	59.883
11550000000.000000	67.820	59.665
11600000000.000000	64.215	58.591
11650000000.000000	59.962	58.467
11700000000.000000	50.315	57.708
11750000000.000000	48.376	58.503
11800000000.000000	54.589	57.896
11850000000.000000	52.753	57.919
11900000000.000000	54.732	57.948
11950000000.000000	57.428	56.834
12000000000.000000	64.813	57.175
12050000000.000000	52.864	57.283
12100000000.000000	62.296	57.676
12150000000.000000	55.497	57.366
12200000000.000000	64.672	57.966
12250000000.000000	61.361	57.763
12300000000.000000	53.433	56.636
12350000000.000000	58.900	56.275
12400000000.000000	84.706	56.592
12450000000.000000	55.635	57.815
12500000000.000000	64.683	57.421
12550000000.000000	59.369	56.951
12600000000.000000	57.570	56.970
12650000000.000000	56.856	57.811
12700000000.000000	57.598	57.945
12750000000.000000	60.320	56.459
12800000000.000000	65.685	56.373
12850000000.000000	62.054	57.250
12900000000.000000	40.997	56.939
12950000000.000000	55.342	57.389
13000000000.000000	68.491	56.442
13050000000.000000	65.901	58.039
13100000000.000000	65.422	58.545
13150000000.000000	54.026	57.601
13200000000.000000	41.711	57.516
13250000000.000000	62.043	57.707
13300000000.000000	62.288	57.861
13350000000.000000	52.554	58.270
13400000000.000000	53.551	57.880
13450000000.000000	50.653	57.713
13500000000.000000	64.246	56.814
13550000000.000000	61.712	57.732
13600000000.000000	65.411	57.443
13650000000.000000	60.775	56.526
13700000000.000000	58.912	57.935
13750000000.000000	64.838	57.329
13800000000.000000	76.057	56.960
13850000000.000000	55.610	57.033
13900000000.000000	62.154	56.361
13950000000.000000	62.406	58.379
14000000000.000000	29.860	58.439
14050000000.000000	55.769	57.322
14100000000.000000	51.041	56.067
14150000000.000000	64.244	55.672
14200000000.000000	53.136	57.984
14250000000.000000	60.483	57.116
14300000000.000000	65.861	56.125
14350000000.000000	65.917	55.821
14400000000.000000	62.890	57.871
14450000000.000000	55.506	57.580
14500000000.000000	55.272	56.318
14550000000.000000	53.759	55.163
14600000000.000000	66.921	55.590
14650000000.000000	55.804	57.330
14700000000.000000	54.826	58.143
14750000000.000000	49.745	55.391
14800000000.000000	56.771	56.266
14850000000.000000	65.871	56.232
14900000000.000000	48.315	56.283
14950000000.000000	65.207	55.954
15000000000.000000	56.613	54.680
15050000000.000000	83.635	54.404
15100000000.000000	51.610	56.445
15150000000.000000	69.396	55.211
15200000000.000000	56.728	56.462
15250000000.000000	62.229	55.318
15300000000.000000	60.465	55.648
15350000000.000000	65.267	56.945
15400000000.000000	67.776	55.815
15450000000.000000	59.739	53.931
15500000000.000000	52.181	55.278
15550000000.000000	49.048	55.986
15600000000.000000	68.329	57.758
15650000000.000000	56.362	54.399
15700000000.000000	54.455	55.958
15750000000.000000	56.223	56.619
15800000000.000000	54.738	57.037
15850000000.000000	61.379	52.980
15900000000.000000	58.830	53.940
15950000000.000000	62.541	55.343
16000000000.000000	63.894	57.143
16050000000.000000	80.522	58.168
16100000000.000000	77.355	55.856
16150000000.000000	56.523	55.653
16200000000.000000	64.128	57.007
16250000000.000000	66.644	56.975
16300000000.000000	48.543	57.655
16350000000.000000	55.472	55.336
16400000000.000000	53.077	55.797
16450000000.000000	66.885	57.552
16500000000.000000	51.164	57.909
16550000000.000000	62.583	57.190
16600000000.000000	67.483	56.940
16650000000.000000	35.565	58.488
16700000000.000000	65.289	57.504
16750000000.000000	36.528	57.225
16800000000.000000	66.509	56.980
16850000000.000000	63.542	56.892
16900000000.000000	58.214	57.468
16950000000.000000	63.327	58.115
17000000000.000000	56.742	58.893
17050000000.000000	62.909	58.164
17100000000.000000	69.871	58.296
17150000000.000000	62.883	57.767
17200000000.000000	69.250	56.421
17250000000.000000	61.767	57.131
17300000000.000000	63.800	58.061
17350000000.000000	69.067	56.587
17400000000.000000	61.499	56.683
17450000000.000000	52.910	57.246
17500000000.000000	64.282	57.037
17550000000.000000	64.984	56.901
17600000000.000000	64.593	54.171
17650000000.000000	61.051	55.515
17700000000.000000	51.349	56.699
17750000000.000000	59.149	56.675
17800000000.000000	57.153	54.974
17850000000.000000	64.349	55.715
17900000000.000000	59.451	55.600
17950000000.000000	68.091	55.697
18000000000.000000	56.893	55.670
18050000000.000000	54.563	54.459
18100000000.000000	47.603	55.133
18150000000.000000	60.824	55.255
18200000000.000000	58.389	56.139
18250000000.000000	48.845	55.111
18300000000.000000	63.250	54.502
18350000000.000000	64.673	55.545
18400000000.000000	66.782	54.796
18450000000.000000	57.554	53.768
18500000000.000000	54.816	53.435
18550000000.000000	72.007	52.388
18600000000.000000	56.048	54.781
18650000000.000000	64.776	53.807
18700000000.000000	55.057	52.957
18750000000.000000	64.087	53.400
18800000000.000000	56.856	55.178
18850000000.000000	48.726	54.115
18900000000.000000	57.726	53.682
18950000000.000000	55.319	52.181
19000000000.000000	58.442	52.677
19050000000.000000	64.517	52.228
19100000000.000000	61.333	51.199
19150000000.000000	60.204	53.352
19200000000.000000	57.601	52.694
19250000000.000000	55.370	52.806
19300000000.000000	60.388	51.960
19350000000.000000	40.528	52.316
19400000000.000000	64.401	52.507
19450000000.000000	57.927	53.365
19500000000.000000	48.969	52.892
19550000000.000000	62.150	53.559
19600000000.000000	58.461	51.605
19650000000.000000	71.678	51.677
19700000000.000000	52.896	53.444
19750000000.000000	54.328	51.704
19800000000.000000	50.107	51.079
19850000000.000000	49.447	51.052
19900000000.000000	52.037	52.794
19950000000.000000	53.872	52.462
20000000000.000000	55.454	50.716
